trials.label,trials.startVal,trials.stepSizes,trials.maxVal,trials.minVal,trials.thisIndex,trials.thisRepN,trials.thisN,trials.direction,trials.stepSize,trials.stepType,trials.intensity,key_resp.corr,ISI.started,grating.started,key_resp.started,grating.stopped,trials.response,participant,session,date,expName,psychopyVersion,frameRate,
cont,0.05,"(0.01, 0.01, 0.005, 0.005)",1,0,0,1,0,start,0.01,db,0.05,0,0.29962820999207906,15.485390476998873,2.005373433989007,15.786092006019317,0,347086,001,2022-09-07_23h00.22.437,Chanda Mandhani_Lab Experiment,2022.2.2,59.800740344824625,
cont,0.05,"(0.01, 0.01, 0.005, 0.005)",1,0,0,2,1,up,0.01,db,0.05005759777690845,0,0.0007916179893072695,18.27558447699994,2.0028760689892806,18.576429711014498,1,347086,001,2022-09-07_23h00.22.437,Chanda Mandhani_Lab Experiment,2022.2.2,59.800740344824625,
cont,0.05,"(0.01, 0.01, 0.005, 0.005)",1,0,0,3,2,down,0.01,db,0.05,1,0.000544826005352661,20.76625005499227,2.0038890709984116,21.066662500001257,1,347086,001,2022-09-07_23h00.22.437,Chanda Mandhani_Lab Experiment,2022.2.2,59.800740344824625,
cont,0.05,"(0.01, 0.01, 0.005, 0.005)",1,0,0,4,3,down,0.01,db,0.05,1,0.0005107270262669772,23.239443160011433,2.004843950009672,23.540311349992407,1,347086,001,2022-09-07_23h00.22.437,Chanda Mandhani_Lab Experiment,2022.2.2,59.800740344824625,
cont,0.05,"(0.01, 0.01, 0.005, 0.005)",1,0,0,5,4,down,0.01,db,0.05,1,0.0007618959934916347,25.67895851499634,2.0028937729948666,25.979757346009137,1,347086,001,2022-09-07_23h00.22.437,Chanda Mandhani_Lab Experiment,2022.2.2,59.800740344824625,
cont,0.05,"(0.01, 0.01, 0.005, 0.005)",1,0,0,6,5,down,0.01,db,0.04994246849682526,1,0.0008439599769189954,28.135848652018467,2.0044970809831284,28.43673595500877,0,347086,001,2022-09-07_23h00.22.437,Chanda Mandhani_Lab Experiment,2022.2.2,59.800740344824625,
cont,0.05,"(0.01, 0.01, 0.005, 0.005)",1,0,0,7,6,up,0.005,db,0.04997122596896401,0,0.0007703870069235563,30.541965330019593,2.0025629280135036,30.843282699992415,1,347086,001,2022-09-07_23h00.22.437,Chanda Mandhani_Lab Experiment,2022.2.2,59.800740344824625,
cont,0.05,"(0.01, 0.01, 0.005, 0.005)",1,0,0,8,7,up,0.005,db,0.04997122596896401,1,0.0009915480040945113,32.948731120006414,2.0028915029834025,33.249684184993384,0,347086,001,2022-09-07_23h00.22.437,Chanda Mandhani_Lab Experiment,2022.2.2,59.800740344824625,
cont,0.05,"(0.01, 0.01, 0.005, 0.005)",1,0,0,9,8,up,0.005,db,0.049999999999999996,0,0.000819947017589584,35.455074607016286,2.003506670007482,35.75571416001185,1,347086,001,2022-09-07_23h00.22.437,Chanda Mandhani_Lab Experiment,2022.2.2,59.800740344824625,
cont,0.05,"(0.01, 0.01, 0.005, 0.005)",1,0,0,10,9,up,0.005,db,0.049999999999999996,1,0.0006573220016434789,37.828396594995866,2.0041209050104953,38.129482971999096,0,347086,001,2022-09-07_23h00.22.437,Chanda Mandhani_Lab Experiment,2022.2.2,59.800740344824625,
cont,0.05,"(0.01, 0.01, 0.005, 0.005)",1,0,0,11,10,up,0.005,db,0.05002879059946804,0,0.0005722820060327649,40.28449236199958,2.003648862009868,40.58620214500115,0,347086,001,2022-09-07_23h00.22.437,Chanda Mandhani_Lab Experiment,2022.2.2,59.800740344824625,
cont,0.05,"(0.01, 0.01, 0.005, 0.005)",1,0,0,12,11,up,0.005,db,0.050057597776908436,0,0.0012439469865057617,42.85807876000763,2.001648382982239,43.15936554200016,0,347086,001,2022-09-07_23h00.22.437,Chanda Mandhani_Lab Experiment,2022.2.2,59.800740344824625,
cont,0.05,"(0.01, 0.01, 0.005, 0.005)",1,0,0,13,12,up,0.005,db,0.05008642154186698,0,0.0008479749958496541,45.26459478199831,2.00299788499251,45.56602848999319,1,347086,001,2022-09-07_23h00.22.437,Chanda Mandhani_Lab Experiment,2022.2.2,59.800740344824625,
cont,0.05,"(0.01, 0.01, 0.005, 0.005)",1,0,0,14,13,up,0.005,db,0.05008642154186698,1,0.0006647499976679683,47.68804644999909,2.0041496329940856,47.988478843995836,0,347086,001,2022-09-07_23h00.22.437,Chanda Mandhani_Lab Experiment,2022.2.2,59.800740344824625,
cont,0.05,"(0.01, 0.01, 0.005, 0.005)",1,0,0,15,14,up,0.005,db,0.05011526190389497,0,0.0005520560080185533,50.24487083000713,2.003982080001151,50.54578238501563,1,347086,001,2022-09-07_23h00.22.437,Chanda Mandhani_Lab Experiment,2022.2.2,59.800740344824625,
cont,0.05,"(0.01, 0.01, 0.005, 0.005)",1,0,0,16,15,up,0.005,db,0.05011526190389497,1,0.0005857860087417066,52.65110777001246,2.003436552011408,52.95222772701527,0,347086,001,2022-09-07_23h00.22.437,Chanda Mandhani_Lab Experiment,2022.2.2,59.800740344824625,
cont,0.05,"(0.01, 0.01, 0.005, 0.005)",1,0,0,17,16,up,0.005,db,0.05014411887254919,0,0.000723019998986274,55.057341022009496,2.003323323006043,55.35873104000348,1,347086,001,2022-09-07_23h00.22.437,Chanda Mandhani_Lab Experiment,2022.2.2,59.800740344824625,
cont,0.05,"(0.01, 0.01, 0.005, 0.005)",1,0,0,18,17,up,0.005,db,0.05014411887254919,1,0.0006620680214837193,57.41380547199515,2.0037620520161,57.714803609997034,1,347086,001,2022-09-07_23h00.22.437,Chanda Mandhani_Lab Experiment,2022.2.2,59.800740344824625,
cont,0.05,"(0.01, 0.01, 0.005, 0.005)",1,0,0,19,18,up,0.005,db,0.05014411887254919,1,0.0008586400072090328,60.13830656200298,2.003303303004941,60.438784819998546,0,347086,001,2022-09-07_23h00.22.437,Chanda Mandhani_Lab Experiment,2022.2.2,59.800740344824625,
cont,0.05,"(0.01, 0.01, 0.005, 0.005)",1,0,0,20,19,up,0.005,db,0.050172992457391936,0,0.001121549983508885,62.861980576999485,2.002555602986831,63.1627316820086,1,347086,001,2022-09-07_23h00.22.437,Chanda Mandhani_Lab Experiment,2022.2.2,59.800740344824625,
cont,0.05,"(0.01, 0.01, 0.005, 0.005)",1,0,0,21,20,up,0.005,db,0.050172992457391936,1,0.0006571999983862042,65.38553793201572,2.0040854169928934,65.68621495200205,1,347086,001,2022-09-07_23h00.22.437,Chanda Mandhani_Lab Experiment,2022.2.2,59.800740344824625,
cont,0.05,"(0.01, 0.01, 0.005, 0.005)",1,0,0,22,21,up,0.005,db,0.050172992457391936,1,0.0005565239989664406,67.8252505499986,2.004791646002559,68.12551963599981,1,347086,001,2022-09-07_23h00.22.437,Chanda Mandhani_Lab Experiment,2022.2.2,59.800740344824625,
cont,0.05,"(0.01, 0.01, 0.005, 0.005)",1,0,0,23,22,down,0.005,db,0.05014411887254919,1,0.0005228800000622869,70.26516113200341,2.0048208290245384,70.56619414701709,0,347086,001,2022-09-07_23h00.22.437,Chanda Mandhani_Lab Experiment,2022.2.2,59.800740344824625,
cont,0.05,"(0.01, 0.01, 0.005, 0.005)",1,0,0,24,23,up,0.005,db,0.050172992457391936,0,0.0005806630069855601,72.68825957999798,2.003432906989474,72.98915266001131,1,347086,001,2022-09-07_23h00.22.437,Chanda Mandhani_Lab Experiment,2022.2.2,59.800740344824625,
cont,0.05,"(0.01, 0.01, 0.005, 0.005)",1,0,0,25,24,up,0.005,db,0.050172992457391936,1,0.000467814999865368,75.09460583201144,2.004452907014638,75.39560573201743,1,347086,001,2022-09-07_23h00.22.437,Chanda Mandhani_Lab Experiment,2022.2.2,59.800740344824625,
cont,0.05,"(0.01, 0.01, 0.005, 0.005)",1,0,0,26,25,up,0.005,db,0.050172992457391936,1,0.0006749400054104626,77.51737078500446,2.0028659210074693,77.81866078500752,0,347086,001,2022-09-07_23h00.22.437,Chanda Mandhani_Lab Experiment,2022.2.2,59.800740344824625,
cont,0.05,"(0.01, 0.01, 0.005, 0.005)",1,0,0,27,26,up,0.005,db,0.05020188266799101,0,0.0005659850139636546,79.90742150199367,2.004494255001191,80.20784253199236,1,347086,001,2022-09-07_23h00.22.437,Chanda Mandhani_Lab Experiment,2022.2.2,59.800740344824625,
cont,0.05,"(0.01, 0.01, 0.005, 0.005)",1,0,0,28,27,up,0.005,db,0.05020188266799101,1,0.0008297220047097653,82.2803447000042,2.0033344099938404,82.58114349000971,0,347086,001,2022-09-07_23h00.22.437,Chanda Mandhani_Lab Experiment,2022.2.2,59.800740344824625,
cont,0.05,"(0.01, 0.01, 0.005, 0.005)",1,0,0,29,28,up,0.005,db,0.05023078951391973,0,0.0006199729978106916,84.68702604001737,2.0038340399914887,84.98771139499149,1,347086,001,2022-09-07_23h00.22.437,Chanda Mandhani_Lab Experiment,2022.2.2,59.800740344824625,
cont,0.05,"(0.01, 0.01, 0.005, 0.005)",1,0,0,30,29,up,0.005,db,0.05023078951391973,1,0.000497710017953068,87.10993155799224,2.004733629000839,87.41101443499792,1,347086,001,2022-09-07_23h00.22.437,Chanda Mandhani_Lab Experiment,2022.2.2,59.800740344824625,
cont,0.05,"(0.01, 0.01, 0.005, 0.005)",1,0,0,31,30,up,0.005,db,0.05023078951391973,1,0.0005842539831064641,89.6334725380002,2.004744039993966,89.93442487501306,1,347086,001,2022-09-07_23h00.22.437,Chanda Mandhani_Lab Experiment,2022.2.2,59.800740344824625,
cont,0.05,"(0.01, 0.01, 0.005, 0.005)",1,0,0,32,31,down,0.005,db,0.05020188266799101,1,0.000434596004197374,92.12343626699294,2.004257285996573,92.42404126701877,1,347086,001,2022-09-07_23h00.22.437,Chanda Mandhani_Lab Experiment,2022.2.2,59.800740344824625,
cont,0.05,"(0.01, 0.01, 0.005, 0.005)",1,0,0,33,32,down,0.005,db,0.05020188266799101,1,0.0006824270240031183,94.68023508199258,2.0025548500125296,94.98103403000277,1,347086,001,2022-09-07_23h00.22.437,Chanda Mandhani_Lab Experiment,2022.2.2,59.800740344824625,
cont,0.05,"(0.01, 0.01, 0.005, 0.005)",1,0,0,34,33,down,0.005,db,0.05020188266799101,1,0.0009747800067998469,97.15320479101501,2.0020769289985765,97.45461784501094,0,347086,001,2022-09-07_23h00.22.437,Chanda Mandhani_Lab Experiment,2022.2.2,59.800740344824625,
cont,0.05,"(0.01, 0.01, 0.005, 0.005)",1,0,0,35,34,up,0.005,db,0.05023078951391973,0,0.0005771040159743279,99.87725093201152,2.0031243019911926,100.17836776000331,0,347086,001,2022-09-07_23h00.22.437,Chanda Mandhani_Lab Experiment,2022.2.2,59.800740344824625,
cont,0.05,"(0.01, 0.01, 0.005, 0.005)",1,0,0,36,35,up,0.005,db,0.05025971300475691,0,0.0006808670004829764,102.35091989999637,2.003512277005939,102.65158768001129,0,347086,001,2022-09-07_23h00.22.437,Chanda Mandhani_Lab Experiment,2022.2.2,59.800740344824625,
cont,0.05,"(0.01, 0.01, 0.005, 0.005)",1,0,0,37,36,up,0.005,db,0.05028865315008688,0,0.0005770989810116589,104.75664962199517,2.003917959984392,105.05774126999313,1,347086,001,2022-09-07_23h00.22.437,Chanda Mandhani_Lab Experiment,2022.2.2,59.800740344824625,
cont,0.05,"(0.01, 0.01, 0.005, 0.005)",1,0,0,38,37,up,0.005,db,0.05028865315008688,1,0.0004588229930959642,107.18004698399454,2.004572600009851,107.481246595009,1,347086,001,2022-09-07_23h00.22.437,Chanda Mandhani_Lab Experiment,2022.2.2,59.800740344824625,
cont,0.05,"(0.01, 0.01, 0.005, 0.005)",1,0,0,39,38,up,0.005,db,0.05028865315008688,1,0.000917545985430479,109.60356759501155,2.0038251240039244,109.90408718501567,0,347086,001,2022-09-07_23h00.22.437,Chanda Mandhani_Lab Experiment,2022.2.2,59.800740344824625,
cont,0.05,"(0.01, 0.01, 0.005, 0.005)",1,0,0,40,39,up,0.005,db,0.050317609959499514,0,0.000570013013202697,112.04287306801416,2.003994441998657,112.344219540013,1,347086,001,2022-09-07_23h00.22.437,Chanda Mandhani_Lab Experiment,2022.2.2,59.800740344824625,
cont,0.05,"(0.01, 0.01, 0.005, 0.005)",1,0,0,41,40,up,0.005,db,0.050317609959499514,1,0.0004672379873227328,114.44951965200016,2.004321896994952,114.75058414999512,0,347086,001,2022-09-07_23h00.22.437,Chanda Mandhani_Lab Experiment,2022.2.2,59.800740344824625,
cont,0.05,"(0.01, 0.01, 0.005, 0.005)",1,0,0,42,41,up,0.005,db,0.05034658344259018,0,0.0012920800072606653,116.80555052100681,2.00189413499902,117.10675960200024,0,347086,001,2022-09-07_23h00.22.437,Chanda Mandhani_Lab Experiment,2022.2.2,59.800740344824625,
cont,0.05,"(0.01, 0.01, 0.005, 0.005)",1,0,0,43,42,up,0.005,db,0.05037557360895978,0,0.0005447760049719363,119.19521284100483,2.003954743006034,119.49655385001097,1,347086,001,2022-09-07_23h00.22.437,Chanda Mandhani_Lab Experiment,2022.2.2,59.800740344824625,
cont,0.05,"(0.01, 0.01, 0.005, 0.005)",1,0,0,44,43,up,0.005,db,0.05037557360895978,1,0.0007133249891921878,121.53533074000734,2.004051397991134,121.83614513001521,1,347086,001,2022-09-07_23h00.22.437,Chanda Mandhani_Lab Experiment,2022.2.2,59.800740344824625,
cont,0.05,"(0.01, 0.01, 0.005, 0.005)",1,0,0,45,44,up,0.005,db,0.05037557360895978,1,0.0006614170270040631,124.20876352500636,2.0035356910084374,124.51012526199338,0,347086,001,2022-09-07_23h00.22.437,Chanda Mandhani_Lab Experiment,2022.2.2,59.800740344824625,
cont,0.05,"(0.01, 0.01, 0.005, 0.005)",1,0,0,46,45,up,0.005,db,0.05040458046821475,0,0.0007014500151854008,126.74907186199562,2.0035149969917256,127.04947682199418,0,347086,001,2022-09-07_23h00.22.437,Chanda Mandhani_Lab Experiment,2022.2.2,59.800740344824625,
cont,0.05,"(0.01, 0.01, 0.005, 0.005)",1,0,0,47,46,up,0.005,db,0.05043360402996705,0,0.0005728160031139851,129.18905964199803,2.004304710018914,129.4902412520023,0,347086,001,2022-09-07_23h00.22.437,Chanda Mandhani_Lab Experiment,2022.2.2,59.800740344824625,
cont,0.05,"(0.01, 0.01, 0.005, 0.005)",1,0,0,48,47,up,0.005,db,0.05046264430383418,0,0.0004662209830712527,131.54549698499613,2.0050722709856927,131.8463839169999,0,347086,001,2022-09-07_23h00.22.437,Chanda Mandhani_Lab Experiment,2022.2.2,59.800740344824625,
cont,0.05,"(0.01, 0.01, 0.005, 0.005)",1,0,0,49,48,up,0.005,db,0.05049170129943918,0,0.000682176003465429,134.1687283620122,2.003373066021595,134.4702477120154,1,347086,001,2022-09-07_23h00.22.437,Chanda Mandhani_Lab Experiment,2022.2.2,59.800740344824625,
cont,0.05,"(0.01, 0.01, 0.005, 0.005)",1,0,0,50,49,up,0.005,db,0.05049170129943918,1,0.0009806070011109114,136.49178173200926,2.0024500750005245,136.79284820199246,0,347086,001,2022-09-07_23h00.22.437,Chanda Mandhani_Lab Experiment,2022.2.2,59.800740344824625,
cont,0.05,"(0.01, 0.01, 0.005, 0.005)",1,0,0,51,50,up,0.005,db,0.05052077502641063,0,0.0005548509943764657,138.9315615380183,2.0045099479903,139.232747956994,0,347086,001,2022-09-07_23h00.22.437,Chanda Mandhani_Lab Experiment,2022.2.2,59.800740344824625,
cont,0.05,"(0.01, 0.01, 0.005, 0.005)",1,0,0,52,51,up,0.005,db,0.05054986549438264,0,0.0006144369835965335,141.30493052999373,2.0044993739866186,141.60577734201797,1,347086,001,2022-09-07_23h00.22.437,Chanda Mandhani_Lab Experiment,2022.2.2,59.800740344824625,
cont,0.05,"(0.01, 0.01, 0.005, 0.005)",1,0,0,53,52,up,0.005,db,0.05054986549438264,1,0.0005644699849653989,143.6278228200099,2.0049303459818475,143.92880702999537,0,347086,001,2022-09-07_23h00.22.437,Chanda Mandhani_Lab Experiment,2022.2.2,59.800740344824625,
cont,0.05,"(0.01, 0.01, 0.005, 0.005)",1,0,0,54,53,up,0.005,db,0.050578972712994885,0,0.0005742020148318261,146.03392188000726,2.0042708620021585,146.33465792500647,1,347086,001,2022-09-07_23h00.22.437,Chanda Mandhani_Lab Experiment,2022.2.2,59.800740344824625,
cont,0.05,"(0.01, 0.01, 0.005, 0.005)",1,0,0,55,54,up,0.005,db,0.050578972712994885,1,0.0008085700101219118,148.3570566700073,2.0035574049979914,148.65783382501104,0,347086,001,2022-09-07_23h00.22.437,Chanda Mandhani_Lab Experiment,2022.2.2,59.800740344824625,
cont,0.05,"(0.01, 0.01, 0.005, 0.005)",1,0,0,56,55,up,0.005,db,0.05060809669189258,0,0.0005840410012751818,150.8303705250146,2.00477263101493,151.13073725701543,1,347086,001,2022-09-07_23h00.22.437,Chanda Mandhani_Lab Experiment,2022.2.2,59.800740344824625,
cont,0.05,"(0.01, 0.01, 0.005, 0.005)",1,0,0,57,56,up,0.005,db,0.05060809669189258,1,0.0010641049884725362,153.1198170669959,2.0030405420111492,153.4206121470197,1,347086,001,2022-09-07_23h00.22.437,Chanda Mandhani_Lab Experiment,2022.2.2,59.800740344824625,
cont,0.05,"(0.01, 0.01, 0.005, 0.005)",1,0,0,58,57,up,0.005,db,0.05060809669189258,1,0.0004962840175721794,155.57636992199696,2.0049300770042464,155.8770792169962,0,347086,001,2022-09-07_23h00.22.437,Chanda Mandhani_Lab Experiment,2022.2.2,59.800740344824625,
cont,0.05,"(0.01, 0.01, 0.005, 0.005)",1,0,0,59,58,up,0.005,db,0.050637237440726506,0,0.0008644949994049966,158.01618579000933,2.002138419979019,158.3168832170195,0,347086,001,2022-09-07_23h00.22.437,Chanda Mandhani_Lab Experiment,2022.2.2,59.800740344824625,
cont,0.05,"(0.01, 0.01, 0.005, 0.005)",1,0,0,60,59,up,0.005,db,0.05066639496915299,0,0.0005625199992209673,160.50563976401463,2.003833080001641,160.80686490199878,1,347086,001,2022-09-07_23h00.22.437,Chanda Mandhani_Lab Experiment,2022.2.2,59.800740344824625,
cont,0.05,"(0.01, 0.01, 0.005, 0.005)",1,0,0,61,60,up,0.005,db,0.05066639496915299,1,0.0008244859927799553,162.8451962649997,2.0038210549973883,163.1469428820128,1,347086,001,2022-09-07_23h00.22.437,Chanda Mandhani_Lab Experiment,2022.2.2,59.800740344824625,
cont,0.05,"(0.01, 0.01, 0.005, 0.005)",1,0,0,62,61,up,0.005,db,0.05066639496915299,1,0.0005515379889402539,165.20199172000866,2.0044044189853594,165.50305032701,0,347086,001,2022-09-07_23h00.22.437,Chanda Mandhani_Lab Experiment,2022.2.2,59.800740344824625,
cont,0.05,"(0.01, 0.01, 0.005, 0.005)",1,0,0,63,62,up,0.005,db,0.05069556928683392,0,0.000542355002835393,167.60797407801147,2.004158855008427,167.90870661701774,1,347086,001,2022-09-07_23h00.22.437,Chanda Mandhani_Lab Experiment,2022.2.2,59.800740344824625,
cont,0.05,"(0.01, 0.01, 0.005, 0.005)",1,0,0,64,63,up,0.005,db,0.05069556928683392,1,0.0004581600078381598,169.96470194199355,2.005105571995955,170.26537472000928,1,347086,001,2022-09-07_23h00.22.437,Chanda Mandhani_Lab Experiment,2022.2.2,59.800740344824625,
cont,0.05,"(0.01, 0.01, 0.005, 0.005)",1,0,0,65,64,up,0.005,db,0.05069556928683392,1,0.0007677779940422624,172.38792336700135,2.0031239679956343,172.68881912500365,0,347086,001,2022-09-07_23h00.22.437,Chanda Mandhani_Lab Experiment,2022.2.2,59.800740344824625,
cont,0.05,"(0.01, 0.01, 0.005, 0.005)",1,0,0,66,65,up,0.005,db,0.05072476040343675,0,0.0010922279907390475,174.89452180001535,2.00238066498423,175.19512342801318,0,347086,001,2022-09-07_23h00.22.437,Chanda Mandhani_Lab Experiment,2022.2.2,59.800740344824625,
cont,0.05,"(0.01, 0.01, 0.005, 0.005)",1,0,0,67,66,up,0.005,db,0.050753968328634505,0,0.0005506220040842891,177.35069960399414,2.0042994059913326,177.65184216201305,1,347086,001,2022-09-07_23h00.22.437,Chanda Mandhani_Lab Experiment,2022.2.2,59.800740344824625,
cont,0.05,"(0.01, 0.01, 0.005, 0.005)",1,0,0,68,67,up,0.005,db,0.050753968328634505,1,0.0006561569753102958,179.7573299370124,2.0028599169745576,180.05847351701232,1,347086,001,2022-09-07_23h00.22.437,Chanda Mandhani_Lab Experiment,2022.2.2,59.800740344824625,
cont,0.05,"(0.01, 0.01, 0.005, 0.005)",1,0,0,69,68,up,0.005,db,0.050753968328634505,1,0.0005411920137703419,182.16373226701398,2.0045683330099564,182.46476396999788,0,347086,001,2022-09-07_23h00.22.437,Chanda Mandhani_Lab Experiment,2022.2.2,59.800740344824625,
cont,0.05,"(0.01, 0.01, 0.005, 0.005)",1,0,0,70,69,up,0.005,db,0.05078319307210578,0,0.0007047099934425205,184.62052329999278,2.003732029988896,184.92084310299833,1,347086,001,2022-09-07_23h00.22.437,Chanda Mandhani_Lab Experiment,2022.2.2,59.800740344824625,
cont,0.05,"(0.01, 0.01, 0.005, 0.005)",1,0,0,71,70,up,0.005,db,0.05078319307210578,1,0.0006192459841258824,186.97639204000006,2.0040009609947447,187.2771274849947,1,347086,001,2022-09-07_23h00.22.437,Chanda Mandhani_Lab Experiment,2022.2.2,59.800740344824625,
cont,0.05,"(0.01, 0.01, 0.005, 0.005)",1,0,0,72,71,up,0.005,db,0.05078319307210578,1,0.0010020899935625494,189.43281398701947,2.0015109659871086,189.73412813001778,0,347086,001,2022-09-07_23h00.22.437,Chanda Mandhani_Lab Experiment,2022.2.2,59.800740344824625,
cont,0.05,"(0.01, 0.01, 0.005, 0.005)",1,0,0,73,72,up,0.005,db,0.05081243464353472,0,0.0006812149949837476,191.82302287200582,2.003624504985055,192.12388924701372,1,347086,001,2022-09-07_23h00.22.437,Chanda Mandhani_Lab Experiment,2022.2.2,59.800740344824625,
cont,0.05,"(0.01, 0.01, 0.005, 0.005)",1,0,0,74,73,up,0.005,db,0.05081243464353472,1,0.0010049619886558503,194.22954400500748,2.002913271979196,194.53033120001783,0,347086,001,2022-09-07_23h00.22.437,Chanda Mandhani_Lab Experiment,2022.2.2,59.800740344824625,
cont,0.05,"(0.01, 0.01, 0.005, 0.005)",1,0,0,75,74,up,0.005,db,0.05084169305261108,0,0.0005070359911769629,196.61908120600856,2.0045074310037307,196.9200986220094,0,347086,001,2022-09-07_23h00.22.437,Chanda Mandhani_Lab Experiment,2022.2.2,59.800740344824625,
cont,0.05,"(0.01, 0.01, 0.005, 0.005)",1,0,0,76,75,up,0.005,db,0.05087096830903018,0,0.0011029829911421984,198.94206786999712,2.0020021100062877,199.24296611201135,1,347086,001,2022-09-07_23h00.22.437,Chanda Mandhani_Lab Experiment,2022.2.2,59.800740344824625,
cont,0.05,"(0.01, 0.01, 0.005, 0.005)",1,0,0,77,76,up,0.005,db,0.05087096830903018,1,0.0008642850152682513,201.33161608400405,2.002844208996976,201.63284412201028,1,347086,001,2022-09-07_23h00.22.437,Chanda Mandhani_Lab Experiment,2022.2.2,59.800740344824625,
cont,0.05,"(0.01, 0.01, 0.005, 0.005)",1,0,0,78,77,up,0.005,db,0.05087096830903018,1,0.0005680469912476838,203.83875647201785,2.0049320250109304,204.13935262701125,0,347086,001,2022-09-07_23h00.22.437,Chanda Mandhani_Lab Experiment,2022.2.2,59.800740344824625,
cont,0.05,"(0.01, 0.01, 0.005, 0.005)",1,0,0,79,78,up,0.005,db,0.05090026042249291,0,0.0005489780160132796,206.34464084499632,2.004223355994327,206.64589370999602,0,347086,001,2022-09-07_23h00.22.437,Chanda Mandhani_Lab Experiment,2022.2.2,59.800740344824625,
cont,0.05,"(0.01, 0.01, 0.005, 0.005)",1,0,0,80,79,up,0.005,db,0.05092956940270577,0,0.0007053900044411421,208.66811049499665,2.003617951995693,208.96879164600978,0,347086,001,2022-09-07_23h00.22.437,Chanda Mandhani_Lab Experiment,2022.2.2,59.800740344824625,
cont,0.05,"(0.01, 0.01, 0.005, 0.005)",1,0,0,81,80,up,0.005,db,0.05095889525938083,0,0.00046233501052483916,211.00722091199714,2.0045148479985073,211.30868755700067,0,347086,001,2022-09-07_23h00.22.437,Chanda Mandhani_Lab Experiment,2022.2.2,59.800740344824625,
cont,0.05,"(0.01, 0.01, 0.005, 0.005)",1,0,0,82,81,up,0.005,db,0.050988238002235765,0,0.0005743399960920215,213.33051579201128,2.0046872880193405,213.63129369501257,0,347086,001,2022-09-07_23h00.22.437,Chanda Mandhani_Lab Experiment,2022.2.2,59.800740344824625,
cont,0.05,"(0.01, 0.01, 0.005, 0.005)",1,0,0,83,82,up,0.005,db,0.05101759764099384,0,0.0010923749941866845,215.6695458519971,2.0010524120007176,215.9710101620003,0,347086,001,2022-09-07_23h00.22.437,Chanda Mandhani_Lab Experiment,2022.2.2,59.800740344824625,
cont,0.05,"(0.01, 0.01, 0.005, 0.005)",1,0,0,84,83,up,0.005,db,0.05104697418538391,0,0.0006045339978300035,218.0599817869952,2.0045789150171913,218.3602704819932,0,347086,001,2022-09-07_23h00.22.437,Chanda Mandhani_Lab Experiment,2022.2.2,59.800740344824625,
cont,0.05,"(0.01, 0.01, 0.005, 0.005)",1,0,0,85,84,up,0.005,db,0.05107636764514045,0,0.0004853269783779979,220.4660334600194,2.00472204000107,220.76643930102,1,347086,001,2022-09-07_23h00.22.437,Chanda Mandhani_Lab Experiment,2022.2.2,59.800740344824625,
cont,0.05,"(0.01, 0.01, 0.005, 0.005)",1,0,0,86,85,up,0.005,db,0.05107636764514045,1,0.0009198129992000759,222.75509414600674,2.00326983598643,223.0564928020176,0,347086,001,2022-09-07_23h00.22.437,Chanda Mandhani_Lab Experiment,2022.2.2,59.800740344824625,
cont,0.05,"(0.01, 0.01, 0.005, 0.005)",1,0,0,87,86,up,0.005,db,0.051105778030003525,0,0.000584427994908765,225.21181005600374,2.004488473990932,225.5130689800135,1,347086,001,2022-09-07_23h00.22.437,Chanda Mandhani_Lab Experiment,2022.2.2,59.800740344824625,
cont,0.05,"(0.01, 0.01, 0.005, 0.005)",1,0,0,88,87,up,0.005,db,0.051105778030003525,1,0.0005419639928732067,227.65162937701098,2.0042524349992163,227.95327135399566,1,347086,001,2022-09-07_23h00.22.437,Chanda Mandhani_Lab Experiment,2022.2.2,59.800740344824625,
cont,0.05,"(0.01, 0.01, 0.005, 0.005)",1,0,0,89,88,up,0.005,db,0.051105778030003525,1,0.00047657598042860627,230.17549775500083,2.004932119976729,230.4763149819919,0,347086,001,2022-09-07_23h00.22.437,Chanda Mandhani_Lab Experiment,2022.2.2,59.800740344824625,
cont,0.05,"(0.01, 0.01, 0.005, 0.005)",1,0,0,90,89,up,0.005,db,0.05113520534971881,0,0.0008018009830266237,232.63161468601902,2.003721934976056,232.93286928499583,0,347086,001,2022-09-07_23h00.22.437,Chanda Mandhani_Lab Experiment,2022.2.2,59.800740344824625,
cont,0.05,"(0.01, 0.01, 0.005, 0.005)",1,0,0,91,90,up,0.005,db,0.05116464961403761,0,0.0005800159997306764,234.98810315001174,2.00373805698473,235.28911416200572,0,347086,001,2022-09-07_23h00.22.437,Chanda Mandhani_Lab Experiment,2022.2.2,59.800740344824625,
cont,0.05,"(0.01, 0.01, 0.005, 0.005)",1,0,0,92,91,up,0.005,db,0.05119411083271682,0,0.0004943319945596159,237.31084900800488,2.0042828299920075,237.612238480011,0,347086,001,2022-09-07_23h00.22.437,Chanda Mandhani_Lab Experiment,2022.2.2,59.800740344824625,
cont,0.05,"(0.01, 0.01, 0.005, 0.005)",1,0,0,93,92,up,0.005,db,0.05122358901551897,0,0.0007057100010570139,239.66758112201933,2.004089361988008,239.96835127999657,0,347086,001,2022-09-07_23h00.22.437,Chanda Mandhani_Lab Experiment,2022.2.2,59.800740344824625,
cont,0.05,"(0.01, 0.01, 0.005, 0.005)",1,0,0,94,93,up,0.005,db,0.05125308417221219,0,0.0007991239835973829,242.05681703501614,2.003215332981199,242.3580336520099,1,347086,001,2022-09-07_23h00.22.437,Chanda Mandhani_Lab Experiment,2022.2.2,59.800740344824625,
cont,0.05,"(0.01, 0.01, 0.005, 0.005)",1,0,0,95,94,up,0.005,db,0.05125308417221219,1,0.0010942280059680343,244.41382784702,2.002487038000254,244.71430055701057,0,347086,001,2022-09-07_23h00.22.437,Chanda Mandhani_Lab Experiment,2022.2.2,59.800740344824625,
cont,0.05,"(0.01, 0.01, 0.005, 0.005)",1,0,0,96,95,up,0.005,db,0.051282596312570275,0,0.0010775419941637665,246.92026811701362,2.001402527006576,247.22061714800657,1,347086,001,2022-09-07_23h00.22.437,Chanda Mandhani_Lab Experiment,2022.2.2,59.800740344824625,
cont,0.05,"(0.01, 0.01, 0.005, 0.005)",1,0,0,97,96,up,0.005,db,0.051282596312570275,1,0.0005335200112313032,249.25969879701734,2.0039827300061006,249.5601313560037,1,347086,001,2022-09-07_23h00.22.437,Chanda Mandhani_Lab Experiment,2022.2.2,59.800740344824625,
cont,0.05,"(0.01, 0.01, 0.005, 0.005)",1,0,0,98,97,up,0.005,db,0.051282596312570275,1,0.0006186039827298373,251.71669316699263,2.0042275000014342,252.01714636501856,0,347086,001,2022-09-07_23h00.22.437,Chanda Mandhani_Lab Experiment,2022.2.2,59.800740344824625,
cont,0.05,"(0.01, 0.01, 0.005, 0.005)",1,0,0,99,98,up,0.005,db,0.051312125446372606,0,0.0006636180041823536,254.1727255320002,2.003794324991759,254.4737131470174,1,347086,001,2022-09-07_23h00.22.437,Chanda Mandhani_Lab Experiment,2022.2.2,59.800740344824625,
cont,0.05,"(0.01, 0.01, 0.005, 0.005)",1,0,0,100,99,up,0.005,db,0.051312125446372606,1,0.0008156769908964634,256.512504473998,2.0034214009938296,256.8134059020085,1,347086,001,2022-09-07_23h00.22.437,Chanda Mandhani_Lab Experiment,2022.2.2,59.800740344824625,
